# rocket_logger v3.6 wait=10Hz fly=100Hz accel=16G(2048/G) gyro=2000dps(16.4/dps) sound=A1 boot=6
t_ms,ax,ay,az,gx,gy,gz,snd_min,snd_max
35078,-1279,-59,1568,16,24,-16,510,510
35085,-1271,-49,1584,7,22,-12,502,502
35094,-1278,-28,1596,11,21,-16,501,515
35104,-1272,-51,1593,14,23,-17,491,521
35115,-1292,-31,1561,14,12,-19,495,522
35124,-1283,-41,1584,17,11,-17,500,521
35134,-1279,-43,1573,10,21,-16,499,519
35144,-1282,-36,1576,11,5,-20,500,522
35154,-1278,-39,1566,14,25,-23,501,520
35164,-1270,-34,1604,14,9,-28,498,521
35174,-1263,-52,1575,14,20,-21,494,524
35184,-1274,-34,1582,7,19,-16,503,522
35194,-1275,-40,1586,12,24,-27,500,520
35204,-1280,-46,1594,13,20,-27,499,520
35214,-1272,-48,1571,16,20,-21,499,520
35224,-1280,-42,1583,9,15,-21,503,518
35234,-1263,-59,1573,10,14,-20,500,521
35244,-1283,-42,1591,16,27,-21,493,520
35254,-1283,-44,1577,14,27,-20,495,521
35264,-1279,-38,1583,10,22,-18,503,521
35274,-1262,-47,1591,15,21,-13,499,524
35284,-1281,-52,1577,13,15,-15,492,518
35294,-1283,-41,1593,20,10,-18,491,522
35304,-1285,-40,1589,11,18,-22,487,525
35314,-1265,-38,1589,15,22,-25,492,525
35324,-1276,-25,1600,15,10,-24,493,520
35334,-1263,-32,1597,11,15,-22,499,518
35344,-1270,-49,1575,22,22,-24,499,522
35354,-1273,-36,1591,6,13,-17,501,517
35364,-1278,-39,1593,9,23,-19,500,519
35374,-1269,-43,1581,14,26,-14,496,522
35384,-1254,-43,1577,13,15,-19,497,526
35394,-1276,-44,1580,14,19,-15,499,521
35404,-1271,-42,1584,13,24,-18,502,522
35414,-1278,-45,1582,14,10,-18,500,519
35424,-1270,-34,1579,16,22,-18,498,520
35434,-1283,-59,1574,19,19,-18,502,521
35444,-1274,-29,1580,8,30,-16,502,523
35454,-1287,-46,1581,17,30,-22,501,522
35464,-1278,-48,1554,9,21,-20,483,545
35474,-1292,-15,1600,19,13,-16,454,545
35484,-1303,-59,1580,18,24,-18,459,548
35494,-1275,-27,1575,8,12,-20,444,556
35504,-1276,-42,1583,12,22,-18,449,574
35514,-1276,-57,1559,15,23,-20,454,570
35524,-1262,-30,1586,13,25,-14,463,561
35534,-1269,-31,1572,9,17,-20,463,568
35544,-1271,-45,1572,9,19,-17,481,545
35554,-1279,-47,1593,9,20,-25,480,539
35564,-1022,-619,1364,36,66,-25,333,696
35578,-32768,-443,-46,-717,1420,-109,434,434
35585,-32768,1883,-5714,-2140,-3243,691,721,721
35594,-32768,1329,-2106,-193,-1415,-329,25,762
35604,-32768,-1646,7560,328,-890,286,87,761
35614,-32768,-2008,7946,491,-834,825,39,762
35624,-32768,-1712,976,140,212,911,284,761
35634,-32768,173,-6044,-542,4265,1092,149,762
35644,-32768,1752,-1272,-145,6776,1825,24,762
35654,-32768,189,11720,-236,6187,2093,24,762
35664,-32030,2242,392,987,5744,2337,25,762
35674,-25650,-2738,7876,2327,5888,3255,25,762
35684,-10340,-2971,5640,5424,5406,3802,24,762
35694,-43,-3981,2302,7721,4471,4378,24,761
35704,1000,-2626,5059,8487,2461,5199,24,762
35714,2217,-5553,2909,10943,1705,5182,24,762
35724,1137,-3047,5599,12384,699,5231,28,763
35734,1333,-2127,3391,14508,132,4553,24,761
35744,1136,1027,2673,15406,-203,4461,26,762
35755,2483,1732,1802,16189,-324,4499,25,762
35764,2775,1728,2324,16398,-681,4874,24,761
35774,3034,3678,4196,15506,-1333,5681,25,761
35784,4040,1706,3254,15416,-1858,5996,26,762
35794,3141,582,3339,15580,-2609,6115,25,762
35804,2574,1047,1806,15752,-3092,6089,24,762
35814,2719,1207,929,15504,-3342,6259,26,761
35824,4102,1440,922,15610,-3424,6415,24,761
35842,3415,-776,-77,14735,-4488,7392,26,26
35845,2814,-1433,-193,14881,-4698,7514,760,760
35854,2874,-2524,37,14611,-5228,7901,24,762
35864,2307,-5114,-1221,14940,-5739,8163,24,762
35874,2826,-5734,-2136,14869,-5609,8053,24,762
35884,2339,-6904,-119,12278,-4361,5866,23,762
35894,910,-10571,-4573,11088,-4832,3424,24,761
35904,1257,-9560,-5330,10253,-3684,2047,24,761
35914,3240,-6364,-3496,9761,-2475,1557,25,762
35924,2643,-6377,-2053,10315,-2680,1550,24,762
35934,1641,-6013,-88,10144,-2974,1583,24,762
35944,1023,-6092,483,9129,-3180,988,25,761
35954,1223,-6619,-369,8506,-3211,144,24,762
35964,1524,-6441,-1639,8755,-3217,-269,24,761
35974,1792,-5908,-2086,9499,-3177,-300,24,761
35984,1548,-4322,-884,9930,-3146,-354,24,762
35994,1245,-3684,-658,9694,-3249,-503,24,762
36004,1108,-3953,-839,9534,-3317,-635,24,762
36014,1135,-3517,-1523,9266,-3444,-662,24,761
36024,1381,-3725,-1363,9257,-3593,-716,24,761
36034,1117,-3641,-1722,9307,-3714,-809,25,762
36044,1145,-3664,-2570,9408,-3736,-965,24,762
36054,1389,-3202,-2662,9596,-3703,-1012,24,761
36064,1329,-2630,-2515,9681,-3637,-1032,23,762
36078,1419,-2009,-2183,9414,-3650,-1032,760,760
36085,1206,-1814,-2597,9234,-3674,-986,25,25
36094,1294,-1646,-2894,8923,-3658,-935,24,762
36104,1442,-1539,-3401,8706,-3614,-861,24,762
36114,1498,-1377,-3260,8357,-3500,-783,24,761
36124,1439,-1373,-3822,7823,-3288,-683,24,762
36134,1581,-1212,-3780,7150,-3011,-707,25,761
36144,1637,-1231,-3614,6548,-2702,-732,24,762
36154,1401,-1199,-3556,5993,-2303,-762,24,762
36164,1686,-1055,-3881,5273,-1892,-747,25,762
36174,1654,-716,-3345,4595,-1477,-698,24,762
36184,1374,-685,-3204,3843,-1078,-682,24,762
36194,1462,-832,-2878,3108,-663,-711,24,761
36204,1546,-714,-2097,2407,-254,-713,24,762
36214,1430,-838,-1796,1800,45,-736,24,761
36224,1230,-950,-1720,1511,230,-740,24,761
36234,1273,-1121,-1684,1350,385,-721,24,762
36244,1083,-1021,-1202,1152,495,-682,24,762
36254,1009,-880,-695,1004,563,-659,24,761
36264,919,-804,-640,833,606,-666,24,762
36274,870,-822,-378,741,607,-666,214,761
36284,735,-743,-339,669,602,-650,25,762
36294,971,-228,-21,420,521,-617,25,762
36304,801,-544,208,578,440,-608,189,762
36314,597,-637,244,693,318,-546,24,762
36324,679,-529,385,938,129,-450,28,762
36334,664,-243,398,1130,-29,-336,88,762
36344,707,-96,262,1249,-224,-224,157,762
36354,621,15,337,1338,-372,-131,24,761
36364,647,93,402,1401,-518,-29,25,762
36374,738,49,30,1477,-653,70,24,762
36384,663,28,14,1484,-776,162,78,762
36395,781,14,122,1525,-879,251,281,761
36404,753,-31,117,1609,-962,338,177,761
36414,761,-31,-306,1651,-1046,417,173,762
36424,863,43,-293,1655,-1080,481,24,761
36434,860,11,-363,1606,-1075,547,24,762
36444,891,-29,-417,1588,-1064,593,45,762
36454,833,-122,-672,1519,-1012,629,132,762
36464,901,-174,-696,1465,-934,646,202,761
36474,899,-196,-599,1442,-859,650,154,761
36484,974,-206,-641,1411,-784,673,84,761
36494,863,-276,-893,1384,-717,669,193,762
36504,772,-178,-669,1332,-666,678,229,762
36514,785,-221,-904,1317,-581,676,237,761
36524,788,-242,-951,1248,-513,685,50,749
36534,1042,-241,-954,1147,-386,705,25,761
36544,915,-292,-788,1112,-236,709,24,761
36554,898,-382,-909,1108,-88,730,165,761
36564,914,-312,-654,1098,19,766,30,761
36578,658,-455,-495,1180,62,791,352,352
36585,679,-384,-155,1150,56,802,372,372
36594,632,-366,49,1129,31,831,25,761
36604,706,-377,106,1029,-7,853,27,762
36614,611,-482,-37,951,-37,852,159,762
36624,598,-551,13,859,-62,841,25,762
36634,602,-688,9,870,-96,847,24,762
36644,554,-761,117,986,-148,841,202,761
36676,422,-483,202,1177,-422,857,444,444
36679,519,-500,157,1164,-427,865,305,305
36681,518,-441,140,1141,-465,870,608,608
36684,580,-433,234,1116,-485,878,529,529
36694,581,-499,-13,1070,-537,885,161,761
36704,570,-543,-22,1029,-591,912,147,761
36714,548,-687,142,1024,-596,935,63,761
36724,660,-774,-192,1114,-618,936,24,761
36734,644,-868,60,1232,-602,937,24,761
36744,555,-817,59,1278,-627,917,98,761
36754,487,-756,127,1275,-645,889,24,761
36764,435,-674,228,1279,-696,854,24,762
36774,478,-601,181,1214,-770,829,62,761
36784,525,-573,89,1185,-835,815,66,761
36794,499,-558,191,1168,-889,815,25,761
36804,435,-643,-129,1141,-969,831,24,761
36814,571,-627,-320,1121,-970,822,28,761
36824,594,-642,-352,1118,-972,810,49,761
36834,557,-599,-363,1071,-968,811,128,761
36844,586,-597,-374,1055,-914,785,25,761
36854,667,-552,-365,1047,-870,773,25,761
36864,567,-647,-437,1035,-847,764,154,761
36874,605,-636,-555,1009,-802,752,24,761
36884,602,-604,-487,1043,-762,736,51,761
36894,637,-507,-637,987,-739,727,181,761
36904,668,-377,-692,971,-685,704,280,761
36914,654,-224,-572,862,-614,694,32,761
36924,697,-267,-485,679,-560,697,279,761
36934,653,-352,-526,563,-471,716,103,762
36944,662,-440,-665,493,-400,720,64,761
36954,646,-549,-565,487,-332,730,25,761
36964,622,-571,-611,554,-240,724,33,761
36974,703,-589,-558,589,-167,710,117,761
36984,639,-692,-422,641,-94,718,75,761
36994,594,-795,-142,795,-81,761,25,761
37004,448,-961,-176,1013,-136,794,42,761
37014,446,-1072,-304,1343,-178,788,95,762
37024,470,-896,-57,1539,-236,761,231,763
37035,455,-636,194,1591,-299,720,24,761
37044,456,-494,249,1566,-350,701,80,761
37054,412,-452,193,1563,-384,692,173,757
37064,416,-444,231,1537,-477,705,272,761
37088,435,-381,176,1413,-675,782,582,582
37095,463,-402,275,1342,-745,790,402,402
37098,450,-358,263,1309,-743,793,484,484
37104,414,-484,182,1277,-763,782,111,707
37114,364,-643,130,1254,-822,747,25,761
37124,507,-646,-83,1294,-866,712,128,761
37134,505,-551,32,1353,-884,686,24,761
37144,568,-486,-99,1360,-868,679,237,761
37154,500,-417,-183,1337,-879,693,239,761
37164,517,-411,-37,1306,-844,702,196,660
37174,488,-461,-180,1183,-832,715,179,761
37184,497,-488,-147,1140,-809,693,175,761
37194,479,-544,-84,1134,-801,681,224,762
37204,511,-541,-151,1130,-806,674,43,761
37214,462,-501,-50,1151,-808,654,26,761
37224,481,-478,-174,1162,-809,652,55,761
37234,473,-319,-185,1091,-824,637,25,761
37244,535,-176,-177,1012,-789,621,203,761
37254,498,-239,-258,937,-770,623,244,728
37264,502,-215,-303,878,-746,634,299,743
37274,544,-292,-380,879,-697,653,128,761
37284,535,-341,-487,910,-685,669,200,761
37294,546,-291,-447,909,-654,682,304,672
37304,564,-230,-570,873,-622,703,45,761
37314,552,-249,-654,794,-574,689,80,761
37324,624,-251,-700,713,-494,673,271,761
37334,678,-283,-717,637,-420,672,207,761
37344,576,-322,-746,609,-291,652,176,761
37354,644,-343,-721,604,-208,645,290,701
37364,626,-323,-664,631,-118,660,202,761
37374,537,-285,-597,650,-66,645,192,733
37384,588,-208,-492,647,-16,641,222,642
37394,508,-215,-475,616,13,623,375,761
37404,573,-182,-432,594,39,627,343,741
37414,511,-152,-375,550,103,621,212,761
37424,560,-119,-464,505,120,619,235,761
37434,549,-105,-431,463,162,625,249,761
37444,523,-119,-391,446,170,637,336,745
37454,552,-151,-407,478,195,656,261,761
37464,520,-254,-336,528,213,682,359,679
37474,537,-266,-381,607,233,713,327,761
37484,552,-231,-315,689,252,733,363,735
37494,589,-208,-257,717,242,761,360,761
37504,560,-120,-182,753,248,778,185,761
37514,462,-137,-121,757,251,779,252,620
37524,478,-65,32,754,231,771,247,761
37534,426,-76,13,765,183,784,278,761
37544,410,-81,38,697,118,817,264,761
37554,360,-18,-17,646,39,854,275,761
37564,471,-29,-39,522,-41,894,271,761
37577,539,-180,-235,408,-78,932,726,726
37584,521,-306,-372,378,-82,939,761,761
37594,526,-433,-439,385,-73,938,78,761
37604,533,-510,-481,433,-32,918,152,761
37614,576,-493,-518,465,29,906,158,761
37624,523,-451,-600,455,71,892,239,761
37634,486,-379,-471,419,110,862,75,761
37644,556,-439,-493,364,143,849,80,751
37654,554,-446,-407,318,170,836,192,761
37664,562,-516,-522,346,199,848,122,761
37675,576,-532,-445,383,219,841,294,761
37684,608,-531,-378,395,253,842,250,761
37694,562,-443,-256,354,280,839,213,699
37704,602,-415,-276,323,302,834,316,761
37714,496,-462,-294,276,304,821,123,761
37724,543,-488,-280,268,314,812,170,761
37734,616,-477,-269,279,298,804,85,761
37744,550,-529,-385,324,288,803,93,761
37754,527,-502,-242,315,255,801,117,761
37772,537,-435,-279,284,229,800,442,442
37775,466,-466,-349,265,241,803,430,430
37784,567,-513,-510,263,238,801,97,761
37794,611,-526,-290,234,260,807,24,761
37804,611,-518,-136,230,288,813,24,761
37814,583,-516,-31,218,292,808,147,761
37824,498,-545,71,260,292,798,144,761
37834,425,-520,88,316,219,777,246,761
37844,351,-566,101,446,119,761,25,761
37854,430,-557,239,556,10,772,224,761
37864,489,-414,266,655,-114,789,204,761
37874,471,-317,196,650,-224,827,24,761
37884,510,-281,85,618,-263,823,135,761
37894,551,-381,44,607,-282,818,244,761
37904,559,-514,-60,665,-302,841,82,761
37914,472,-642,-74,757,-346,879,26,761
37924,521,-534,-231,849,-392,887,82,761
37934,531,-512,-123,842,-437,878,266,761
37944,570,-422,-75,683,-460,861,132,761
37954,670,-500,-295,552,-447,830,24,761
37964,644,-633,-611,475,-401,796,217,761
37974,669,-743,-698,434,-369,786,33,761
37984,697,-708,-637,445,-288,776,294,761
37994,639,-650,-569,418,-202,741,24,761
38004,601,-632,-393,332,-141,711,69,761
38014,592,-721,-570,353,-74,660,24,761
38024,636,-616,-427,386,-49,648,24,761
38034,601,-519,-356,416,-49,639,64,761
38044,639,-480,-425,424,-49,652,24,761
38054,634,-410,-394,359,-52,677,25,761
38064,616,-532,-412,278,-58,701,25,761
38077,685,-704,-524,222,-13,712,760,760
38084,669,-741,-695,207,26,715,192,192
38094,640,-810,-521,248,67,682,24,761
38104,601,-884,-563,273,101,673,24,761
38114,716,-809,-801,232,124,652,24,761
38124,682,-829,-730,162,203,622,24,761
38134,741,-808,-839,117,277,598,24,761
38144,693,-807,-541,96,330,573,25,761
38154,781,-861,-663,122,400,566,24,762
38164,624,-943,-595,151,422,571,24,761
38174,725,-905,-421,136,453,573,103,761
38184,724,-880,-420,142,470,585,24,761
38194,689,-828,-369,141,499,563,24,761
38204,682,-821,-317,67,484,561,25,761
38214,660,-779,-417,46,505,538,25,761
38224,683,-735,-189,-11,502,534,24,761
38234,635,-830,-299,-12,478,527,25,761
38244,553,-919,-88,-6,419,540,24,761
38254,631,-1059,-144,119,334,568,24,761
38264,666,-1140,-237,252,255,594,25,761
38274,671,-1146,-216,350,179,595,251,762
38284,754,-1069,-244,348,118,580,24,761
38294,754,-1032,-309,298,125,565,24,761
38304,749,-1078,-343,313,182,549,24,761
38315,704,-1264,-358,386,213,528,24,761
38324,667,-1269,-404,476,209,520,24,761
38334,635,-1236,-33,577,175,472,24,761
38344,601,-1128,93,581,73,443,25,761
38354,538,-1079,-127,576,-17,406,24,761
38364,584,-1097,-47,650,-108,392,24,761
38374,574,-999,-353,734,-183,387,59,761
38384,844,-979,-393,799,-182,405,24,761
38394,883,-882,-209,844,-154,449,24,761
38404,758,-838,-356,784,-161,448,24,761
38414,759,-843,-400,655,-141,433,24,761
38424,842,-1007,-324,607,-164,404,25,761
38434,721,-1085,-429,589,-167,378,25,761
38444,786,-1026,-554,652,-185,352,24,761
38454,796,-1034,-751,742,-188,330,25,761
38464,761,-818,-557,753,-173,330,25,761
38474,814,-741,-750,709,-176,350,25,761
38484,830,-680,-502,600,-162,373,24,761
38494,872,-746,-686,524,-136,374,24,761
38504,932,-841,-904,341,-86,410,24,761
38514,1005,-990,-1142,257,14,423,25,761
38524,1036,-1029,-959,215,144,411,25,761
38534,981,-1126,-1253,199,296,383,24,761
38544,955,-1037,-1214,173,369,352,24,761
38554,891,-1084,-1045,119,495,353,25,761
38564,789,-1091,-678,21,522,343,24,761
38578,929,-1117,-803,-34,619,346,566,566
38585,863,-1130,-778,8,660,333,760,760
38594,984,-1099,-607,-12,708,310,24,761
38604,839,-890,-227,-41,755,256,24,761
38614,832,-870,-265,-11,724,243,24,761
38624,666,-919,-321,86,625,254,24,761
38634,22597,1159,32767,12952,-21757,-15746,24,761
38644,32767,-21527,8716,-3397,2304,-4472,16,759
38654,32767,2174,-27154,6858,3507,-332,26,759
38664,-14639,1896,-27061,-3871,-4481,-5580,23,758
38674,23471,6287,-3209,-3400,1654,812,24,759
38684,2,1218,3219,-196,745,-2004,24,759
38694,88,-236,-314,2346,818,-3225,389,610
38704,258,1522,140,2221,594,-3328,418,585
38714,-259,1728,253,793,310,-3326,440,579
38724,-285,66,-430,49,283,-3548,477,523
38734,208,-153,-406,74,210,-3742,480,538
38744,204,-558,-672,187,148,-3875,454,540
38754,55,-793,-825,618,95,-4080,471,540
38764,73,-910,-1184,1193,55,-4184,487,525
38774,181,-645,-987,1677,25,-4203,491,520
38784,316,-147,-340,1859,-40,-4189,489,516
38794,242,209,-251,1672,-50,-4138,499,526
38804,141,252,-161,1361,-85,-4083,497,523
38814,77,154,-125,1196,-173,-4034,454,555
38824,54,45,-112,1165,-288,-3999,498,524
38834,60,91,-78,1128,-393,-3972,498,529
38844,-66,179,-53,991,-465,-3953,498,521
38854,-85,272,-22,743,-427,-3911,497,520
38864,-10,252,94,368,-297,-3864,499,522
38874,-6,41,100,202,-112,-3849,497,519
38884,26,-20,31,185,199,-3850,501,520
38894,204,-128,58,316,535,-3887,486,529
38904,211,-57,15,601,784,-3972,434,547
38914,333,170,259,733,1012,-4051,496,524
38924,265,263,186,687,1237,-4089,501,522
38934,138,244,111,498,1385,-4114,500,522
38944,119,74,-50,375,1435,-4107,501,518
38955,76,-44,-104,415,1428,-4100,500,521
38964,39,-33,-92,492,1429,-4080,500,520
38974,16,39,-51,496,1455,-4041,500,517
38984,16,21,-170,473,1468,-3980,499,518
38994,53,36,-216,477,1432,-3948,500,516
39004,53,90,-234,454,1416,-3912,501,520
39014,45,98,-247,384,1435,-3873,498,517
39024,49,42,-278,356,1451,-3841,501,519
39034,19,-45,-337,401,1473,-3808,502,519
39044,7,-77,-378,502,1496,-3794,500,520
39054,12,-57,-348,602,1515,-3772,483,525
39064,6,-26,-339,671,1554,-3759,499,517
39077,58,18,-297,735,1641,-3733,515,515
39085,73,20,-287,780,1701,-3726,516,516
39094,46,17,-287,837,1770,-3724,500,517
39104,61,-5,-315,910,1858,-3726,500,519
39114,74,-15,-274,960,1961,-3702,491,522
39124,52,39,-370,1003,2045,-3666,481,552
39134,-24953,21814,-32768,8544,11447,3354,166,758
39144,2512,4603,-3105,6818,1329,-1271,20,761
39154,3876,-2049,-14511,2370,6956,582,24,759
39164,-3047,-2530,-4486,3476,5373,1689,28,759
39174,344,-2143,-4213,568,5635,1944,227,760
39184,381,-1286,-2683,2036,5035,1834,292,760
39194,498,-72,-1372,1517,5239,1874,421,678
39204,661,156,-1263,1333,5181,2055,460,586
39214,218,283,-1165,1358,5480,2107,480,530
39224,-66,660,109,1028,5492,2215,487,535
39234,-18,132,-1256,1258,5383,2328,482,537
39244,-229,-460,-1950,2019,5294,2291,489,535
39254,-81,-271,-1304,2454,5250,2139,471,528
39264,-278,-258,-1344,2743,5369,1981,476,542
39274,-274,-355,-1456,3070,5484,1712,416,565
39284,-794,3566,-5369,6031,5882,3063,24,760
39294,8195,-13615,-32768,5147,-3130,3602,19,759
39304,29466,1576,12702,7777,-4628,1226,25,759
39314,8660,448,-7398,10972,-2960,3319,24,758
39324,2874,1688,-1298,5013,-4470,3748,289,610
39334,2063,-823,-2934,6134,-4047,3930,421,541
39344,1568,291,-356,5902,-4255,4153,440,560
39354,2315,-2601,-4281,4814,-2566,2240,385,609
39364,211,-2262,-3000,4115,-556,-576,424,596
39374,-690,-499,-641,3256,-1146,-783,437,592
39384,-827,-460,-612,2542,-1446,-514,432,561
39394,-712,-853,-92,1839,-1475,-615,459,549
39404,-906,-170,-449,403,-1312,-714,464,553
39414,-345,-39,-1080,-297,-1180,-701,493,524
39424,20,-311,-1692,-916,-1088,-490,485,525
39434,345,-618,-2286,-1291,-935,-172,473,533
39444,836,-706,-2571,-1372,-621,34,484,539
39454,897,-339,-2468,-1426,-263,128,488,547
39464,595,-216,-2259,-1473,-47,232,479,532
39474,317,-252,-2015,-1429,22,291,491,562
39484,167,-13,-1872,-1359,15,336,411,633
39494,245,-400,-2046,-1285,-56,305,461,534
39504,188,-398,-2328,-1184,-130,197,465,555
39514,211,-337,-2212,-1135,-110,94,494,533
39524,201,-235,-2113,-1101,-163,43,501,525
39534,255,-309,-2051,-1061,-232,41,472,542
39544,272,-83,-1909,-1037,-301,52,449,554
39554,243,-198,-1776,-979,-337,43,316,759
39564,301,-146,-2056,-893,-421,58,463,545
39577,321,-125,-2151,-742,-471,57,513,513
39584,273,-133,-2346,-627,-505,46,544,544
39595,234,-88,-2180,-434,-496,29,504,527
39604,238,-103,-2233,-259,-490,13,502,520
39614,204,-37,-2240,-102,-437,-7,476,532
39624,225,-47,-2234,17,-361,-20,490,544
39634,223,-80,-2244,120,-263,-21,498,520
39644,171,-39,-2185,208,-160,-16,501,516
39654,164,-78,-2198,253,-78,-2,503,514
39664,173,-111,-2144,270,14,-10,501,521
39674,186,-104,-2095,266,88,-26,506,513
39684,196,-128,-2051,248,136,-41,493,520
39694,193,-91,-2061,210,172,-41,507,517
39704,239,-113,-2045,166,181,-25,507,517
39721,231,-135,-2040,79,158,-13,511,511
39725,235,-143,-2028,56,170,-15,512,512
39734,227,-138,-2041,21,150,-15,505,513
39744,222,-137,-2006,-11,104,-30,506,514
39754,234,-133,-2022,-26,72,-28,507,513
